<?xml version="1.0" encoding="UTF-8"?>
<Bundle xmlns="http://hl7.org/fhir">
    <id value="mp-ProposalMedicationAgreement-Bundle-01"/>
    <identifier>
        <system value="urn:ietf:rfc:3986"/>
        <value value="urn:uuid:8141ad96-d347-44de-b323-0409fb8fa0ef"/>
    </identifier>
    <type value="transaction"/>
    <total value="5"/>
    <link>
        <relation value="self"/>
        <url value="http://nictiz2.wildfhir.org/fhir3-0-2-i2/Bundle?identifier=8141ad96-d347-44de-b323-0409fb8fa0ef"/>
    </link>
    <entry>
        <fullUrl value="http://nictiz2.wildfhir.org/fhir3-0-2-i2/MedicationRequest/mp-ProposalMedicationAgreement-01"/>
        <resource>
            <MedicationRequest>
                <id value="mp-ProposalMedicationAgreement-01"/>
                <meta>
                    <profile value="http://nictiz.nl/fhir/StructureDefinition/nl-core-MedicationAgreement"/>
                    <tag>
                        <system value="http://hl7.org/fhir/ValueSet/common-tags"/>
                        <code value="actionable"/>
                    </tag>
                </meta>
                <extension url="http://nictiz.nl/fhir/StructureDefinition/ext-RenderedDosageInstruction">
                    <valueString value="Van 01-04-2022 tot 11-04-2022 1x per dag 1 stuk. Vanaf 11-04-2022 staken."/>
                </extension>
                <extension url="http://nictiz.nl/fhir/StructureDefinition/ext-TimeInterval.Period">
                    <valuePeriod>
                        <start value="2022-04-01"/>
                        <end value="2022-04-10"/>
                    </valuePeriod>
                </extension>
                <modifierExtension url="http://nictiz.nl/fhir/StructureDefinition/ext-StopType">
                    <valueCodeableConcept>
                        <coding>
                            <system value="http://snomed.info/sct"/>
                            <code value="113381000146106"/>
                            <display value="Drug therapy definitively stopped (finding)"/>
                        </coding>
                    </valueCodeableConcept>
                </modifierExtension>
                <identifier>
                    <system value="urn:ietf:rfc:3986"/>
                    <value value="urn:uuid:e5662f60-f8a5-481a-9391-696f97bf0c76"/>
                </identifier>
                <status value="active"/>
                <intent value="plan"/>
                <category>
                    <coding>
                        <system value="http://snomed.info/sct"/>
                        <code value="16076005"/>
                        <display value="voorschrijven"/>
                    </coding>
                </category>
                <medicationReference>
                    <reference value="Medication/nl-core-MedicationAgreement-01-Medication-01"/>
                    <type value="Medication"/>
                    <display value="LISINOPRIL 10MG TABLET"/>
                </medicationReference>
                <subject>
                    <reference value="Patient/nl-core-Patient-01"/>
                    <type value="Patient"/>
                    <display value="Patient, Johanna Petronella Maria (Jo) van Putten-van der Giessen"/>
                </subject>
                <authoredOn value="2022-03-25T09:00:00+02:00"/>
                <requester>
                    <reference value="PractitionerRole/nl-core-MedicationAgreement-01-PractitionerRole-01"/>
                    <type value="PractitionerRole"/>
                    <display value="Healthcare professional (role), D. Bakker"/>
                </requester>
                <reasonCode>
                    <coding>
                        <system value="http://snomed.info/sct"/>
                        <code value="58848006"/>
                        <display value="Gebrek aan geneesmiddeleffect"/>
                    </coding>
                </reasonCode>
                <dosageInstruction>
                    <timing>
                        <repeat>
                            <extension url="http://hl7.org/fhir/StructureDefinition/timing-exact">
                                <valueBoolean value="true"/>
                            </extension>
                            <frequency value="1"/>
                            <period value="10"/>
                            <periodUnit value="d"/>
                        </repeat>
                    </timing>
                    <doseAndRate>
                        <doseQuantity>
                            <value value="1"/>
                            <unit value="stuk"/>
                            <system value="http://unitsofmeasure.org"/>
                            <code value="{stuk}"/>
                        </doseQuantity>
                    </doseAndRate>
                </dosageInstruction>
            </MedicationRequest>
        </resource>
    </entry>
    <entry>
        <fullUrl value="http://nictiz2.wildfhir.org/fhir3-0-2-i2/Patient/nl-core-Patient-01"/>
        <resource>
            <Patient xmlns="http://hl7.org/fhir">
                <id value="nl-core-Patient-01"/>
                <meta>
                    <profile value="http://nictiz.nl/fhir/StructureDefinition/nl-core-Patient"/>
                </meta>
                <extension url="http://hl7.org/fhir/StructureDefinition/patient-nationality">
                    <extension url="code">
                        <valueCodeableConcept>
                            <coding>
                                <system value="urn:oid:2.16.840.1.113883.2.4.4.16.32"/>
                                <code value="0001"/>
                                <display value="Nederlandse"/>
                            </coding>
                        </valueCodeableConcept>
                    </extension>
                </extension>
                <identifier>
                    <system value="http://fhir.nl/fhir/NamingSystem/bsn"/>
                    <value value="111222333"/>
                </identifier>
                <name>
                    <use value="official"/>
                    <text value="Johanna Petronella Maria (Jo) van Putten-van der Giessen"/>
                    <family value="van Putten-van der Giessen">
                        <extension url="http://hl7.org/fhir/StructureDefinition/humanname-own-prefix">
                            <valueString value="van"/>
                        </extension>
                        <extension url="http://hl7.org/fhir/StructureDefinition/humanname-own-name">
                            <valueString value="Putten"/>
                        </extension>
                        <extension url="http://hl7.org/fhir/StructureDefinition/humanname-partner-prefix">
                            <valueString value="van der"/>
                        </extension>
                        <extension url="http://hl7.org/fhir/StructureDefinition/humanname-partner-name">
                            <valueString value="Giessen"/>
                        </extension>
                    </family>
                    <given value="Johanna">
                        <extension url="http://hl7.org/fhir/StructureDefinition/iso21090-EN-qualifier">
                            <valueCode value="BR"/>
                        </extension>
                    </given>
                    <given value="Petronella">
                        <extension url="http://hl7.org/fhir/StructureDefinition/iso21090-EN-qualifier">
                            <valueCode value="BR"/>
                        </extension>
                    </given>
                    <given value="Maria">
                        <extension url="http://hl7.org/fhir/StructureDefinition/iso21090-EN-qualifier">
                            <valueCode value="BR"/>
                        </extension>
                    </given>
                </name>
                <name>
                    <use value="usual"/>
                    <given value="Jo"/>
                </name>
                <telecom>
                    <system value="phone">
                        <extension url="http://nictiz.nl/fhir/StructureDefinition/ext-CodeSpecification">
                            <valueCodeableConcept>
                                <coding>
                                    <system value="http://terminology.hl7.org/CodeSystem/v3-AddressUse"/>
                                    <code value="MC"/>
                                    <display value="Mobile Phone"/>
                                </coding>
                            </valueCodeableConcept>
                        </extension>
                    </system>
                    <value value="+31611234567"/>
                </telecom>
                <telecom>
                    <system value="email"/>
                    <value value="giesput@myweb.nl"/>
                    <use value="home"/>
                </telecom>
                <gender value="female">
                    <extension url="http://nictiz.nl/fhir/StructureDefinition/ext-CodeSpecification">
                        <valueCodeableConcept>
                            <coding>
                                <system value="http://terminology.hl7.org/CodeSystem/v3-AdministrativeGender"/>
                                <code value="F"/>
                                <display value="Female"/>
                            </coding>
                        </valueCodeableConcept>
                    </extension>
                </gender>
                <birthDate value="1934-04-28"/>
                <deceasedBoolean value="false"/>
                <address>
                    <extension url="http://nictiz.nl/fhir/StructureDefinition/ext-AddressInformation.AddressType">
                        <valueCodeableConcept>
                            <coding>
                                <system value="http://terminology.hl7.org/CodeSystem/v3-AddressUse"/>
                                <code value="HP"/>
                                <display value="Primary Home"/>
                            </coding>
                        </valueCodeableConcept>
                    </extension>
                    <use value="home"/>
                    <type value="both"/>
                    <line value="1e Jacob van Campenstr 15">
                        <extension url="http://hl7.org/fhir/StructureDefinition/iso21090-ADXP-streetName">
                            <valueString value="1e Jacob van Campenstr"/>
                        </extension>
                        <extension url="http://hl7.org/fhir/StructureDefinition/iso21090-ADXP-houseNumber">
                            <valueString value="15"/>
                        </extension>
                    </line>
                    <city value="Hoogmade"/>
                    <district value="Kaag en Braassem"/>
                    <postalCode value="1012 NX"/>
                    <country value="Nederland">
                        <extension url="http://nictiz.nl/fhir/StructureDefinition/ext-CodeSpecification">
                            <valueCodeableConcept>
                                <coding>
                                    <system value="urn:iso:std:iso:3166"/>
                                    <version value="2020-10-26T00:00:00"/>
                                    <code value="NL"/>
                                    <display value="Nederland"/>
                                </coding>
                            </valueCodeableConcept>
                        </extension>
                    </country>
                </address>
                <maritalStatus>
                    <coding>
                        <system value="http://terminology.hl7.org/CodeSystem/v3-MaritalStatus"/>
                        <code value="D"/>
                        <display value="Divorced"/>
                    </coding>
                </maritalStatus>
                <multipleBirthBoolean value="true"/>
                <contact>
                    <relationship>
                        <coding>
                            <system value="urn:oid:2.16.840.1.113883.2.4.3.11.22.472"/>
                            <code value="01"/>
                            <display value="Eerste relatie/contactpersoon"/>
                        </coding>
                    </relationship>
                    <relationship>
                        <coding>
                            <system value="urn:oid:2.16.840.1.113883.2.4.3.11.22.472"/>
                            <code value="07"/>
                            <display value="Hulpverlener"/>
                        </coding>
                    </relationship>
                    <name>
                        <use value="official"/>
                        <text value="J.P.M. van Putten-van der Giessen"/>
                        <family value="van Putten-van der Giessen">
                            <extension url="http://hl7.org/fhir/StructureDefinition/humanname-own-prefix">
                                <valueString value="van"/>
                            </extension>
                            <extension url="http://hl7.org/fhir/StructureDefinition/humanname-own-name">
                                <valueString value="Putten"/>
                            </extension>
                            <extension url="http://hl7.org/fhir/StructureDefinition/humanname-partner-prefix">
                                <valueString value="van der"/>
                            </extension>
                            <extension url="http://hl7.org/fhir/StructureDefinition/humanname-partner-name">
                                <valueString value="Giessen"/>
                            </extension>
                        </family>
                        <given value="J.">
                            <extension url="http://hl7.org/fhir/StructureDefinition/iso21090-EN-qualifier">
                                <valueCode value="IN"/>
                            </extension>
                        </given>
                        <given value="P.">
                            <extension url="http://hl7.org/fhir/StructureDefinition/iso21090-EN-qualifier">
                                <valueCode value="IN"/>
                            </extension>
                        </given>
                        <given value="M.">
                            <extension url="http://hl7.org/fhir/StructureDefinition/iso21090-EN-qualifier">
                                <valueCode value="IN"/>
                            </extension>
                        </given>
                    </name>
                    <telecom>
                        <system value="phone">
                            <extension url="http://nictiz.nl/fhir/StructureDefinition/ext-CodeSpecification">
                                <valueCodeableConcept>
                                    <coding>
                                        <system value="http://terminology.hl7.org/CodeSystem/v3-AddressUse"/>
                                        <code value="MC"/>
                                        <display value="Mobile Phone"/>
                                    </coding>
                                </valueCodeableConcept>
                            </extension>
                        </system>
                        <value value="+31611234567"/>
                    </telecom>
                    <telecom>
                        <system value="email"/>
                        <value value="giesput@myweb.nl"/>
                        <use value="work"/>
                    </telecom>
                    <address>
                        <extension url="http://nictiz.nl/fhir/StructureDefinition/ext-AddressInformation.AddressType">
                            <valueCodeableConcept>
                                <coding>
                                    <system value="http://terminology.hl7.org/CodeSystem/v3-AddressUse"/>
                                    <code value="HP"/>
                                    <display value="Primary Home"/>
                                </coding>
                            </valueCodeableConcept>
                        </extension>
                        <use value="home"/>
                        <type value="both"/>
                        <line value="1e Jacob van Campenstr 15">
                            <extension url="http://hl7.org/fhir/StructureDefinition/iso21090-ADXP-streetName">
                                <valueString value="1e Jacob van Campenstr"/>
                            </extension>
                            <extension url="http://hl7.org/fhir/StructureDefinition/iso21090-ADXP-houseNumber">
                                <valueString value="15"/>
                            </extension>
                        </line>
                        <city value="Hoogmade"/>
                        <district value="Kaag en Braassem"/>
                        <postalCode value="1012 NX"/>
                        <country value="Nederland">
                            <extension url="http://nictiz.nl/fhir/StructureDefinition/ext-CodeSpecification">
                                <valueCodeableConcept>
                                    <coding>
                                        <system value="urn:oid:2.16.840.1.113883.2.4.4.16.34"/>
                                        <version value="2020-04-01T00:00:00"/>
                                        <code value="6030"/>
                                        <display value="Nederland"/>
                                    </coding>
                                </valueCodeableConcept>
                            </extension>
                        </country>
                    </address>
                </contact>
                <communication>
                    <extension url="http://hl7.org/fhir/StructureDefinition/patient-proficiency">
                        <extension url="level">
                            <valueCoding>
                                <system value="http://terminology.hl7.org/CodeSystem/v3-LanguageAbilityProficiency"/>
                                <code value="G"/>
                                <display value="Good"/>
                            </valueCoding>
                        </extension>
                        <extension url="type">
                            <valueCoding>
                                <system value="http://terminology.hl7.org/CodeSystem/v3-LanguageAbilityMode"/>
                                <code value="RSP"/>
                                <display value="Received spoken"/>
                            </valueCoding>
                        </extension>
                    </extension>
                    <extension url="http://hl7.org/fhir/StructureDefinition/patient-proficiency">
                        <extension url="level">
                            <valueCoding>
                                <system value="http://terminology.hl7.org/CodeSystem/v3-LanguageAbilityProficiency"/>
                                <code value="F"/>
                                <display value="Fair"/>
                            </valueCoding>
                        </extension>
                        <extension url="type">
                            <valueCoding>
                                <system value="http://terminology.hl7.org/CodeSystem/v3-LanguageAbilityMode"/>
                                <code value="ESP"/>
                                <display value="Expressed spoken"/>
                            </valueCoding>
                        </extension>
                    </extension>
                    <extension url="http://hl7.org/fhir/StructureDefinition/patient-proficiency">
                        <extension url="level">
                            <valueCoding>
                                <system value="http://terminology.hl7.org/CodeSystem/v3-LanguageAbilityProficiency"/>
                                <code value="G"/>
                                <display value="Good"/>
                            </valueCoding>
                        </extension>
                        <extension url="type">
                            <valueCoding>
                                <system value="http://terminology.hl7.org/CodeSystem/v3-LanguageAbilityMode"/>
                                <code value="RWR"/>
                                <display value="Received written"/>
                            </valueCoding>
                        </extension>
                    </extension>
                    <extension url="http://nictiz.nl/fhir/StructureDefinition/ext-Comment">
                        <valueString value="Bij gesprek met arts zoon uitnodigen voor vertalen"/>
                    </extension>
                    <language>
                        <coding>
                            <system value="urn:oid:1.0.639.1"/>
                            <code value="nl"/>
                            <display value="Nederlands"/>
                        </coding>
                    </language>
                </communication>
            </Patient>
        </resource>
    </entry>
    <entry>
        <fullUrl value="http://nictiz2.wildfhir.org/fhir3-0-2-i2/Medication/nl-core-MedicationAgreement-01-Medication-01"/>
        <resource>
            <Medication xmlns="http://hl7.org/fhir">
                <id value="nl-core-MedicationAgreement-01-Medication-01"/>
                <meta>
                    <profile value="http://nictiz.nl/fhir/StructureDefinition/nl-core-PharmaceuticalProduct"/>
                </meta>
                <code>
                    <coding>
                        <system value="urn:oid:2.16.840.1.113883.2.4.4.10"/>
                        <code value="71587"/>
                        <display value="LISINOPRIL 10MG TABLET"/>
                        <userSelected value="true"/>
                    </coding>
                    <text value="LISINOPRIL 10MG TABLET"/>
                </code>
            </Medication>
        </resource>
    </entry>
    <entry>
        <fullUrl value="http://nictiz2.wildfhir.org/fhir3-0-2-i2/PractitionerRole/nl-core-MedicationAgreement-01-PractitionerRole-01"/>
        <resource>
            <PractitionerRole xmlns="http://hl7.org/fhir">
                <id value="nl-core-MedicationAgreement-01-PractitionerRole-01"/>
                <meta>
                    <profile value="http://nictiz.nl/fhir/StructureDefinition/nl-core-HealthProfessional-PractitionerRole"/>
                </meta>
                <practitioner>
                    <reference value="Practitioner/nl-core-MedicationAgreement-01-Practitioner-01"/>
                    <type value="Practitioner"/>
                    <display value="Healthcare professional (person), D. Bakker"/>
                </practitioner>
            </PractitionerRole>
        </resource>
    </entry>
    <entry>
        <fullUrl value="http://nictiz2.wildfhir.org/fhir3-0-2-i2/PractitionerRole/nl-core-MedicationAgreement-01-Practitioner-01"/>
        <resource>
            <Practitioner xmlns="http://hl7.org/fhir">
                <id value="nl-core-MedicationAgreement-01-Practitioner-01"/>
                <meta>
                    <profile value="http://nictiz.nl/fhir/StructureDefinition/nl-core-HealthProfessional-Practitioner"/>
                </meta>
                <name>
                    <use value="official"/>
                    <text value="D. Bakker"/>
                    <family value="Bakker">
                        <extension url="http://hl7.org/fhir/StructureDefinition/humanname-own-name">
                            <valueString value="Bakker"/>
                        </extension>
                    </family>
                    <given value="D.">
                        <extension url="http://hl7.org/fhir/StructureDefinition/iso21090-EN-qualifier">
                            <valueCode value="IN"/>
                        </extension>
                    </given>
                </name>
            </Practitioner>
        </resource>
    </entry>
    <entry>
        <fullUrl value="http://nictiz2.wildfhir.org/fhir3-0-2-i2/Observation/mp-BodyWeight-01"/>
        <resource>
            <Observation xmlns="http://hl7.org/fhir">
                <id value="mp-BodyWeight-01"/>
                <meta>
                    <profile value="http://nictiz.nl/fhir/StructureDefinition/nl-core-BodyWeight"/>
                </meta>
                <status value="final"/>
                <category>
                    <coding>
                        <system value="http://terminology.hl7.org/CodeSystem/observation-category"/>
                        <code value="vital-signs"/>
                        <display value="Vital Signs"/>
                    </coding>
                </category>
                <code>
                    <coding>
                        <system value="http://loinc.org"/>
                        <code value="29463-7"/>
                        <display value="Body weight"/>
                    </coding>
                </code>
                <subject>
                    <reference value="Patient/nl-core-Patient-01"/>
                    <type value="Patient"/>
                    <display value="Patient, Johanna Petronella Maria (Jo) van Putten-van der Giessen"/>
                </subject>
                <effectiveDateTime value="2022-03-05"/>
                <valueQuantity>
                    <value value="78"/>
                    <unit value="kg"/>
                    <system value="http://unitsofmeasure.org"/>
                    <code value="kg"/>
                </valueQuantity>
            </Observation>
        </resource>
    </entry>
    <entry>
        <fullUrl value="http://nictiz2.wildfhir.org/fhir3-0-2-i2/Observation/nl-core-BodyHeight-01"/>
        <resource>
            <Observation xmlns="http://hl7.org/fhir">
                <id value="nl-core-BodyHeight-01"/>
                <meta>
                    <profile value="http://nictiz.nl/fhir/StructureDefinition/nl-core-BodyHeight"/>
                </meta>
                <status value="final"/>
                <category>
                    <coding>
                        <system value="http://terminology.hl7.org/CodeSystem/observation-category"/>
                        <code value="vital-signs"/>
                        <display value="Vital Signs"/>
                    </coding>
                </category>
                <code>
                    <coding>
                        <system value="http://loinc.org"/>
                        <code value="8302-2"/>
                        <display value="Body height"/>
                    </coding>
                </code>
                <subject>
                    <reference value="Patient/nl-core-Patient-01"/>
                    <type value="Patient"/>
                    <display value="Patient, Johanna Petronella Maria (Jo) van Putten-van der Giessen"/>
                </subject>
                <effectiveDateTime value="2013-02-08T06:43:00+01:00"/>
                <valueQuantity>
                    <value value="153"/>
                    <unit value="cm"/>
                    <system value="http://unitsofmeasure.org"/>
                    <code value="cm"/>
                </valueQuantity>
                <note>
                    <text value="Met schoenen aan"/>
                </note>
                <component>
                    <code>
                        <coding>
                            <system value="http://snomed.info/sct"/>
                            <code value="425260001"/>
                            <display value="Body position for height measurement"/>
                        </coding>
                    </code>
                    <valueCodeableConcept>
                        <coding>
                            <system value="http://snomed.info/sct"/>
                            <code value="10904000"/>
                            <display value="Staande positie"/>
                        </coding>
                    </valueCodeableConcept>
                </component>
            </Observation>
        </resource>
    </entry>
</Bundle>