<?xml version="1.0" encoding="UTF-8"?>
<Bundle xmlns="http://hl7.org/fhir">
    <id value="mp-ReplyProposalMedicationAgreement-Bundle-01"/>
    <identifier>
        <system value="urn:ietf:rfc:3986"/>
        <value value="urn:uuid:e85aad74-d815-11ec-9d64-0242ac120002"/>
    </identifier>
    <type value="transaction"/>
    <link>
        <relation value="self"/>
        <url value="http://nictiz2.wildfhir.org/fhir3-0-2-i2/Bundle?identifier=e85aad74-d815-11ec-9d64-0242ac120002"/>
    </link>
    <entry>
        <fullUrl value="http://nictiz2.wildfhir.org/fhir3-0-2-i2/Communication/mp-ReplyProposalMedicationAgreement-01"/>
        <resource>
            <Communication>
                <id value="mp-ReplyProposalMedicationAgreement-01"/>
                <meta>
                    <profile value="http://nictiz.nl/fhir/StructureDefinition/mp-ReplyProposalMedicationAgreement"/>
                    <tag>
                        <system value="http://terminology.hl7.org/CodeSystem/common-tags"/>
                        <code value="actionable"/>
                    </tag>
                </meta>
                <identifier>
                    <system value="urn:ietf:rfc:3986"/>
                    <value value="urn:uuid:25e23b54-ec3e-431a-89ae-fe19341362a2"/>
                </identifier>
                <basedOn>
                    <reference value="MedicationRequest/mp-ProposalMedicationAgreement-01"/>
                    <type value="MedicationRequest"/>
                </basedOn>
                <status value="in-progress"/>
                <subject>
                    <reference value="Patient/nl-core-Patient-01"/>
                    <type value="Patient"/>
                    <display value="Patient, Johanna Petronella Maria (Jo) van Putten-van der Giessen"/>
                </subject>
                <sent value="2022-03-28T10:00:00+02:00"/>
                <sender>
                    <reference value="PractitionerRole/nl-core-MedicationAgreement-02-PractitionerRole-01"/>
                    <type value="PractitionerRole"/>
                    <display value="Healthcare professional (role), R. Jansen"/>
                </sender>
                <payload>
                    <contentString>
                        <extension url="http://nictiz.nl/fhir/StructureDefinition/ext-Communication.Payload.ContentCodeableConcept">
                            <valueCodeableConcept>
                                <coding>
                                    <system value="urn:oid:2.16.840.1.113883.2.4.3.11.60.20.77.5.2.17"/>
                                    <code value="101"/>
                                    <display value="Ja, medicatieafspraak volgt"/>
                                </coding>
                            </valueCodeableConcept>
                        </extension>
                    </contentString>
                </payload>
            </Communication>
        </resource>
        <request>
            <method value="POST"/>
            <url value="Communication"/>
        </request>
    </entry>
    <entry>
        <fullUrl value="http://nictiz2.wildfhir.org/fhir3-0-2-i2/Patient/nl-core-Patient-01"/>
        <resource>
            <Patient xmlns="http://hl7.org/fhir">
                <id value="nl-core-Patient-01"/>
                <meta>
                    <profile value="http://nictiz.nl/fhir/StructureDefinition/nl-core-Patient"/>
                </meta>
                <extension url="http://hl7.org/fhir/StructureDefinition/patient-nationality">
                    <extension url="code">
                        <valueCodeableConcept>
                            <coding>
                                <system value="urn:oid:2.16.840.1.113883.2.4.4.16.32"/>
                                <code value="0001"/>
                                <display value="Nederlandse"/>
                            </coding>
                        </valueCodeableConcept>
                    </extension>
                </extension>
                <identifier>
                    <system value="http://fhir.nl/fhir/NamingSystem/bsn"/>
                    <value value="111222333"/>
                </identifier>
                <name>
                    <use value="official"/>
                    <text value="Johanna Petronella Maria (Jo) van Putten-van der Giessen"/>
                    <family value="van Putten-van der Giessen">
                        <extension url="http://hl7.org/fhir/StructureDefinition/humanname-own-prefix">
                            <valueString value="van"/>
                        </extension>
                        <extension url="http://hl7.org/fhir/StructureDefinition/humanname-own-name">
                            <valueString value="Putten"/>
                        </extension>
                        <extension url="http://hl7.org/fhir/StructureDefinition/humanname-partner-prefix">
                            <valueString value="van der"/>
                        </extension>
                        <extension url="http://hl7.org/fhir/StructureDefinition/humanname-partner-name">
                            <valueString value="Giessen"/>
                        </extension>
                    </family>
                    <given value="Johanna">
                        <extension url="http://hl7.org/fhir/StructureDefinition/iso21090-EN-qualifier">
                            <valueCode value="BR"/>
                        </extension>
                    </given>
                    <given value="Petronella">
                        <extension url="http://hl7.org/fhir/StructureDefinition/iso21090-EN-qualifier">
                            <valueCode value="BR"/>
                        </extension>
                    </given>
                    <given value="Maria">
                        <extension url="http://hl7.org/fhir/StructureDefinition/iso21090-EN-qualifier">
                            <valueCode value="BR"/>
                        </extension>
                    </given>
                </name>
                <name>
                    <use value="usual"/>
                    <given value="Jo"/>
                </name>
                <telecom>
                    <system value="phone">
                        <extension url="http://nictiz.nl/fhir/StructureDefinition/ext-CodeSpecification">
                            <valueCodeableConcept>
                                <coding>
                                    <system value="http://terminology.hl7.org/CodeSystem/v3-AddressUse"/>
                                    <code value="MC"/>
                                    <display value="Mobile Phone"/>
                                </coding>
                            </valueCodeableConcept>
                        </extension>
                    </system>
                    <value value="+31611234567"/>
                </telecom>
                <telecom>
                    <system value="email"/>
                    <value value="giesput@myweb.nl"/>
                    <use value="home"/>
                </telecom>
                <gender value="female">
                    <extension url="http://nictiz.nl/fhir/StructureDefinition/ext-CodeSpecification">
                        <valueCodeableConcept>
                            <coding>
                                <system value="http://terminology.hl7.org/CodeSystem/v3-AdministrativeGender"/>
                                <code value="F"/>
                                <display value="Female"/>
                            </coding>
                        </valueCodeableConcept>
                    </extension>
                </gender>
                <birthDate value="1934-04-28"/>
                <deceasedBoolean value="false"/>
                <address>
                    <extension url="http://nictiz.nl/fhir/StructureDefinition/ext-AddressInformation.AddressType">
                        <valueCodeableConcept>
                            <coding>
                                <system value="http://terminology.hl7.org/CodeSystem/v3-AddressUse"/>
                                <code value="HP"/>
                                <display value="Primary Home"/>
                            </coding>
                        </valueCodeableConcept>
                    </extension>
                    <use value="home"/>
                    <type value="both"/>
                    <line value="1e Jacob van Campenstr 15">
                        <extension url="http://hl7.org/fhir/StructureDefinition/iso21090-ADXP-streetName">
                            <valueString value="1e Jacob van Campenstr"/>
                        </extension>
                        <extension url="http://hl7.org/fhir/StructureDefinition/iso21090-ADXP-houseNumber">
                            <valueString value="15"/>
                        </extension>
                    </line>
                    <city value="Hoogmade"/>
                    <district value="Kaag en Braassem"/>
                    <postalCode value="1012 NX"/>
                    <country value="Nederland">
                        <extension url="http://nictiz.nl/fhir/StructureDefinition/ext-CodeSpecification">
                            <valueCodeableConcept>
                                <coding>
                                    <system value="urn:iso:std:iso:3166"/>
                                    <version value="2020-10-26T00:00:00"/>
                                    <code value="NL"/>
                                    <display value="Nederland"/>
                                </coding>
                            </valueCodeableConcept>
                        </extension>
                    </country>
                </address>
                <maritalStatus>
                    <coding>
                        <system value="http://terminology.hl7.org/CodeSystem/v3-MaritalStatus"/>
                        <code value="D"/>
                        <display value="Divorced"/>
                    </coding>
                </maritalStatus>
                <multipleBirthBoolean value="true"/>
                <contact>
                    <relationship>
                        <coding>
                            <system value="urn:oid:2.16.840.1.113883.2.4.3.11.22.472"/>
                            <code value="01"/>
                            <display value="Eerste relatie/contactpersoon"/>
                        </coding>
                    </relationship>
                    <relationship>
                        <coding>
                            <system value="urn:oid:2.16.840.1.113883.2.4.3.11.22.472"/>
                            <code value="07"/>
                            <display value="Hulpverlener"/>
                        </coding>
                    </relationship>
                    <name>
                        <use value="official"/>
                        <text value="J.P.M. van Putten-van der Giessen"/>
                        <family value="van Putten-van der Giessen">
                            <extension url="http://hl7.org/fhir/StructureDefinition/humanname-own-prefix">
                                <valueString value="van"/>
                            </extension>
                            <extension url="http://hl7.org/fhir/StructureDefinition/humanname-own-name">
                                <valueString value="Putten"/>
                            </extension>
                            <extension url="http://hl7.org/fhir/StructureDefinition/humanname-partner-prefix">
                                <valueString value="van der"/>
                            </extension>
                            <extension url="http://hl7.org/fhir/StructureDefinition/humanname-partner-name">
                                <valueString value="Giessen"/>
                            </extension>
                        </family>
                        <given value="J.">
                            <extension url="http://hl7.org/fhir/StructureDefinition/iso21090-EN-qualifier">
                                <valueCode value="IN"/>
                            </extension>
                        </given>
                        <given value="P.">
                            <extension url="http://hl7.org/fhir/StructureDefinition/iso21090-EN-qualifier">
                                <valueCode value="IN"/>
                            </extension>
                        </given>
                        <given value="M.">
                            <extension url="http://hl7.org/fhir/StructureDefinition/iso21090-EN-qualifier">
                                <valueCode value="IN"/>
                            </extension>
                        </given>
                    </name>
                    <telecom>
                        <system value="phone">
                            <extension url="http://nictiz.nl/fhir/StructureDefinition/ext-CodeSpecification">
                                <valueCodeableConcept>
                                    <coding>
                                        <system value="http://terminology.hl7.org/CodeSystem/v3-AddressUse"/>
                                        <code value="MC"/>
                                        <display value="Mobile Phone"/>
                                    </coding>
                                </valueCodeableConcept>
                            </extension>
                        </system>
                        <value value="+31611234567"/>
                    </telecom>
                    <telecom>
                        <system value="email"/>
                        <value value="giesput@myweb.nl"/>
                        <use value="work"/>
                    </telecom>
                    <address>
                        <extension url="http://nictiz.nl/fhir/StructureDefinition/ext-AddressInformation.AddressType">
                            <valueCodeableConcept>
                                <coding>
                                    <system value="http://terminology.hl7.org/CodeSystem/v3-AddressUse"/>
                                    <code value="HP"/>
                                    <display value="Primary Home"/>
                                </coding>
                            </valueCodeableConcept>
                        </extension>
                        <use value="home"/>
                        <type value="both"/>
                        <line value="1e Jacob van Campenstr 15">
                            <extension url="http://hl7.org/fhir/StructureDefinition/iso21090-ADXP-streetName">
                                <valueString value="1e Jacob van Campenstr"/>
                            </extension>
                            <extension url="http://hl7.org/fhir/StructureDefinition/iso21090-ADXP-houseNumber">
                                <valueString value="15"/>
                            </extension>
                        </line>
                        <city value="Hoogmade"/>
                        <district value="Kaag en Braassem"/>
                        <postalCode value="1012 NX"/>
                        <country value="Nederland">
                            <extension url="http://nictiz.nl/fhir/StructureDefinition/ext-CodeSpecification">
                                <valueCodeableConcept>
                                    <coding>
                                        <system value="urn:oid:2.16.840.1.113883.2.4.4.16.34"/>
                                        <version value="2020-04-01T00:00:00"/>
                                        <code value="6030"/>
                                        <display value="Nederland"/>
                                    </coding>
                                </valueCodeableConcept>
                            </extension>
                        </country>
                    </address>
                </contact>
                <communication>
                    <extension url="http://hl7.org/fhir/StructureDefinition/patient-proficiency">
                        <extension url="level">
                            <valueCoding>
                                <system value="http://terminology.hl7.org/CodeSystem/v3-LanguageAbilityProficiency"/>
                                <code value="G"/>
                                <display value="Good"/>
                            </valueCoding>
                        </extension>
                        <extension url="type">
                            <valueCoding>
                                <system value="http://terminology.hl7.org/CodeSystem/v3-LanguageAbilityMode"/>
                                <code value="RSP"/>
                                <display value="Received spoken"/>
                            </valueCoding>
                        </extension>
                    </extension>
                    <extension url="http://hl7.org/fhir/StructureDefinition/patient-proficiency">
                        <extension url="level">
                            <valueCoding>
                                <system value="http://terminology.hl7.org/CodeSystem/v3-LanguageAbilityProficiency"/>
                                <code value="F"/>
                                <display value="Fair"/>
                            </valueCoding>
                        </extension>
                        <extension url="type">
                            <valueCoding>
                                <system value="http://terminology.hl7.org/CodeSystem/v3-LanguageAbilityMode"/>
                                <code value="ESP"/>
                                <display value="Expressed spoken"/>
                            </valueCoding>
                        </extension>
                    </extension>
                    <extension url="http://hl7.org/fhir/StructureDefinition/patient-proficiency">
                        <extension url="level">
                            <valueCoding>
                                <system value="http://terminology.hl7.org/CodeSystem/v3-LanguageAbilityProficiency"/>
                                <code value="G"/>
                                <display value="Good"/>
                            </valueCoding>
                        </extension>
                        <extension url="type">
                            <valueCoding>
                                <system value="http://terminology.hl7.org/CodeSystem/v3-LanguageAbilityMode"/>
                                <code value="RWR"/>
                                <display value="Received written"/>
                            </valueCoding>
                        </extension>
                    </extension>
                    <extension url="http://nictiz.nl/fhir/StructureDefinition/ext-Comment">
                        <valueString value="Bij gesprek met arts zoon uitnodigen voor vertalen"/>
                    </extension>
                    <language>
                        <coding>
                            <system value="urn:oid:1.0.639.1"/>
                            <code value="nl"/>
                            <display value="Nederlands"/>
                        </coding>
                    </language>
                </communication>
            </Patient>
        </resource>
        <request>
            <method value="POST"/>
            <url value="Patient"/>
        </request>
    </entry>
    <entry>
        <fullUrl value="http://nictiz2.wildfhir.org/fhir3-0-2-i2/PractitionerRole/nl-core-MedicationAgreement-02-PractitionerRole-01"/>
        <resource>
            <PractitionerRole xmlns="http://hl7.org/fhir">
                <id value="nl-core-MedicationAgreement-02-PractitionerRole-01"/>
                <meta>
                    <profile value="http://nictiz.nl/fhir/StructureDefinition/nl-core-HealthProfessional-PractitionerRole"/>
                </meta>
                <practitioner>
                    <reference value="Practitioner/nl-core-MedicationAgreement-02-Practitioner-01"/>
                    <type value="Practitioner"/>
                    <display value="Healthcare professional (person), R. Jansen"/>
                </practitioner>
            </PractitionerRole>
        </resource>
        <request>
            <method value="POST"/>
            <url value="PractitionerRole"/>
        </request>
    </entry>
    <entry>
        <fullUrl value="http://nictiz2.wildfhir.org/fhir3-0-2-i2/Practitioner/nl-core-MedicationAgreement-02-Practitioner-01"/>
        <resource>
            <Practitioner xmlns="http://hl7.org/fhir">
                <id value="nl-core-MedicationAgreement-02-Practitioner-01"/>
                <meta>
                    <profile value="http://nictiz.nl/fhir/StructureDefinition/nl-core-HealthProfessional-Practitioner"/>
                </meta>
                <name>
                    <use value="official"/>
                    <text value="R. Jansen"/>
                    <family value="Jansen">
                        <extension url="http://hl7.org/fhir/StructureDefinition/humanname-own-name">
                            <valueString value="Jansen"/>
                        </extension>
                    </family>
                    <given value="R.">
                        <extension url="http://hl7.org/fhir/StructureDefinition/iso21090-EN-qualifier">
                            <valueCode value="IN"/>
                        </extension>
                    </given>
                </name>
            </Practitioner>
        </resource>
        <request>
            <method value="POST"/>
            <url value="Practitioner"/>
        </request>
    </entry>
</Bundle>